File: Log_XRD_Depths_updated.csv
XRD Depth,offset,Nearest Log Depth,Quartz,Calcite,Dolomite,Siderite,Kaolinite,Chlorite,Illite/Mica,Mx I/S*,K-spar,Plag.,Pyrite,AF10,AF20,AF30,AF60,AF90,AO10,AO20,AO30,AO60,AO90,AT10,AT20,AT30,AT60,AT90,AFCO60,AORT,AORX,BFV,CBP1,CBP2,CBP3,CBP4,CBP5,CBP6,CBP7,CBP8,CDF,CFTC,CMFF,CMFF_SIG,CMR_PHI_CO,CMRP_3MS,CNTC,CTEM,DCAL,DNPH,DPHZ,DPH8,DSOZ,DWAL_WALK2,DWCA_WALK2,DWFE_WALK2,DWGD_WALK2,DWSI_WALK2,DWSU_WALK2,DWTI_WALK2,ECGR,ECST,ESUF_WALK2,GDEV,GR,GR_EDTC,GTEM,HCAL,HDRA,HDRB,HGR,HMIN,HMNO,HNPO,HPRA,HTNP,KSDR,KTIM,NPHI,NPOR,PEF8,PEFZ,PXND_HILT,QCPMT,RHGE_WALK2,RHO8,RHOZ,RSOZ,RXO8,RXOZ,SP,SPAR,STIT,T2LM,T2LM_SIG,TCMR,TENS,TNPH,WCAR_WALK2,WCLA_WALK2,WPYR_WALK2,WQFM_WALK2,DTCO,DTSM
10410.15,0.05,10410.1,35,8,1,0,0,2,24,17,3,9,1,14.6851,18.3887,21.8596,22.3449,20.2427,14.3881,18.667,23.1073,18.5308,17.9175,14.6374,18.6219,22.353,22.1871,22.3333,44.753,17.1752,10.7698,0.0856,0.0321,0.0338,0.0139,0.0076,0.0001,0.0024,0.001,0,1642.58,1657.44,0.0053,0.004,0.0008,0.025,3462.92,183.3412,0.9218,-0.0164,0.0756,0.0606,0.0135,0.0542,0.0371,0.0308,4.0245,0.3288,0.0064,0.0036,77.8359,61.2084,0.5,0.4921,71.2471,76.7407,182.2964,9.6718,-0.0127,0.0493,74.648,10.436,9.5506,0.1542,-0.0168,0.1503,0.0011,0.0029,0.1517,0.1497,4.0905,4.0561,0.1361,0.1607,2.7136,2.6063,2.5807,0.0001,14.7064,19.9587,-206.4811,-206.8074,0,1.9833,-999.25,0.0908,4670,0.1503,0.0249,0.2726,0.0119,0.6906,76.5114,126.3492
10420.85,0.15,10421,42,4,2,0.1,0,2,22,14,3,9,2,16.1093,19.0649,18.1192,16.9089,15.8089,15.4333,18.8457,16.389,13.4335,12.9587,16.6816,21.8151,19.5952,18.2888,16.6364,59.1403,11.1361,17.383,0.0571,0.0227,0.0196,0.0134,0.0023,0.0079,0.0011,0,0.0009,1690.57,1600.04,0.0108,0.0041,0.0008,0.0256,3344.61,183.3412,0.8794,-0.0161,0.0656,0.0617,0.0252,0.0646,0.0342,0.0345,9.3882,0.316,0.0208,0.0055,83.8055,61.2084,0.5542,0,76.8545,83.2833,182.2964,9.6294,-0.0026,-0.0041,79.2744,16.2232,14.3961,0.1357,0.0339,0.1511,0.0006,0.0076,0.1525,0.1443,3.2912,3.2843,0.1342,0.0096,2.7367,2.6046,2.5978,0.0001,20.5867,23.2981,-206.6213,-206.5864,0,2.7511,-999.25,0.068,4753,0.1509,0.017,0.3249,0.0389,0.6192,74.3312,122.9403
10437.05,0.05,10437.1,0,0,0,0,1,6,37,56,0,0,0,10.7539,13.9054,13.5538,11.3775,12.3897,8.0817,23.6942,15.9204,12.8,12.5123,10.3209,20.3404,18.7913,12.7898,18.1598,87.8928,11.4993,5.467,0.0596,0.0221,0.0227,0.0105,0.0065,0.0034,0.0006,0.0003,0,1572.22,1769.34,0.0064,0.0037,0.0008,0.0213,3604.43,183.3412,0.941,-0.0164,0.0615,0.0501,0.022,0.0595,0.0603,0.0319,3.9001,0.2941,0.0227,0.0033,77.6762,62.379,0.4879,2.4501,71.0409,89.0013,182.7997,9.691,0.0021,0.0117,63.8202,19.382,17.5892,0.1195,0.03,0.1424,0.0004,0.0026,0.1299,0.1172,3.3014,3.8003,0.1276,0.252,2.7389,2.6244,2.6049,0.0001,27.3398,19.7617,-206.7538,-206.5511,0,2.25,-999.25,0.0661,4653.2,0.1425,0.0872,0.2993,0.0425,0.571,74.8124,126.6956
10442.15,0.05,10442.1,36,4,1,0,0,2,26,20,2,7,2,11.4927,14.2213,16.494,14.2943,13.9937,10.0223,8.6909,10.598,11.1679,11.0414,10.9342,9.7874,11.9111,10.2619,9.6274,69.958,11.937,8.6184,0.0737,0.03,0.0288,0.0113,0.0061,0.0022,0.0017,0.0003,0,1560.82,1318.56,0.0068,0.0039,0.0008,0.0216,3055.46,183.3412,0.8902,-0.0167,0.0781,0.0626,0.0355,0.0637,0.043,0.0351,4.3244,0.3063,0.0178,0.0034,95.7205,62.379,0.5591,1.9285,87.7395,91.5729,182.7997,9.6402,-0.0043,0.0189,86,12.6616,11.2532,0.1921,0.0603,0.1855,0.0006,0.0036,0.189,0.1949,3.4377,3.64,0.1591,0.356,2.7361,2.603,2.5765,0.0205,16.1835,14.7624,-206.25,-206.4303,0,1.9162,-999.25,0.0805,4599.83,0.1854,0.0407,0.3202,0.0334,0.6058,75.7188,125.3274
10450.15,0.05,10450.1,41,0,1,0,0,2,19,21,5,10,1,15.3901,20.2805,21.0149,18.5841,21.0845,13.8233,17.0861,18.4696,18.729,18.6655,14.4411,18.5186,19.6756,17.4556,23.0253,53.8096,16.8768,10.2781,0.066,0.0291,0.026,0.0107,0.0013,0.0065,0.0014,0.0002,0.0016,1635.83,1548.624,0.0107,0.0042,0.0008,0.0217,3411.45,183.3412,0.881,-0.0164,0.0807,0.0859,0,0.0495,0.0481,0.0278,6.6438,0.3246,0.0097,0.0029,94.4913,62.379,0.5079,4.2056,86.6481,98.7504,182.7997,9.631,-0.003,-0.0068,88.0036,24.0596,21.3777,0.1897,0.0569,0.1673,0.0007,0.0091,0.1817,0.1952,3.0503,3.1159,0.1486,0.4831,2.7137,2.5631,2.572,0.0001,30.5947,27.1337,-206.6066,-206.8319,0,2.2842,-999.25,0.0767,4679.2,0.1672,0.0543,0.249,0.0181,0.6786,73.8439,120.5396
10460.65,0.15,10460.5,0,0,0,0,0,7,42,51,0,0,0,12.6013,14.026,14.7089,13.8143,13.7469,14.1513,16.8703,17.9357,16.3815,16.2262,11.8107,12.8542,14.1041,13.05,13.2548,72.3886,15.5362,10.6517,0.0517,0.022,0.0203,0.0059,0.0065,0.0043,0.001,0,0,1638.62,2223.12,0.0084,0.0038,0.0008,0.0178,4009.1,183.3412,0.7469,-0.0142,0.0425,0.0432,0,0.0634,0.0543,0.0358,2.3818,0.2929,0.0092,0.0042,80.1489,63.5495,0.4823,2.5949,73.9334,83.6197,182.7997,9.4969,-0.0017,-0.0044,75.3271,12.3523,10.9519,0.1173,0.0289,0.1111,0.0003,0.0035,0.1238,0.1236,3.4581,3.5204,0.1013,0.1221,2.729,2.6362,2.6373,0.0001,15.6509,17.1684,-209.2408,-208.1269,4.7787,2.2238,-999.25,0.0601,5066,0.1111,0.0709,0.3186,0.0171,0.5933,67.53,112.845
10490.15,0.05,10490.2,47.8,27,6.3,0,0,1.7,5.1,4,0.7,8.1,1.2,46.4788,113.3648,158.1416,134.4946,115.6723,44.6656,129.365,96.1529,62.0091,61.3067,48.1883,108.2523,143.1472,130.0671,98.6097,7.4352,72.1184,15.9133,0.0315,0.0077,0.0065,0.0108,0.0095,0.0026,0.0006,0.0004,0.0001,1524.24,3214.446,0.0066,0.0039,0.0008,0.024,4960.38,183.3412,0.4134,-0.0109,0.0594,0.0536,0,0.0248,0.131,0.0126,7.8297,0.2724,0.0131,0.0019,76.3947,61.2084,0.3841,2.0098,71.5361,74.1256,183.303,9.1634,-0.0011,0.0059,71.7022,277.4995,248.5134,0.084,-0.0173,0.0786,0.0002,0.001,0.0787,0.0826,3.2973,3.3432,0.0773,0.0794,2.7039,2.6183,2.6084,0.0001,372.4095,139.8074,-214.1176,-213.8052,0,4.8816,-999.25,0.0382,4538.167,0.0788,0.2773,0.1247,0.0246,0.5734,62.9802,102.2308
10494.25,0.05,10494.2,42,10,2,0,0,2,18,14,1,9,2,24.4021,34.8251,36.9336,34.8149,33.8016,20.1812,26.6156,25.3951,22.3257,21.9687,23.7584,35.1058,37.0217,34.8738,34.5671,28.7234,23.9635,13.9566,0.0488,0.0107,0.0166,0.0134,0.0115,0.003,0.0017,0.0001,0,1532.1,2244.16,0.0081,0.0039,0.0008,0.0297,4134.68,183.3412,0.4327,-0.0122,0.0606,0.0616,0,0.0507,0.0851,0.0278,5.2239,0.2798,0.0144,0.0029,87.6072,60.0379,0.4722,1.917,81.9637,90.5356,183.303,9.1827,-0.0025,-0.0042,83.2808,32.1546,28.5985,0.1332,0.0444,0.1185,0.0007,0.0034,0.1237,0.1326,3.3627,3.3661,0.11,0.3766,2.7258,2.6046,2.6064,0.0001,40.9448,44.5134,-213.3277,-213.6669,0,4.0915,-999.25,0.057,4614.33,0.1184,0.154,0.255,0.027,0.564,68.3292,108.7317
10500.2,0,10500.2,45,5,1,0,0,2,16,13,5,11,2,21.9079,30.2686,32.0546,31.6336,29.604,15.8344,23.1448,23.7747,21.5855,21.1765,18.8521,24.9488,25.5969,24.7004,24.7408,31.612,22.8222,12.8102,0.0507,0.0159,0.026,0.0058,0.0068,0.0046,0.0001,0.0002,0.0011,1573.48,1984.66,0.0099,0.004,0.0008,0.0187,3780,183.8494,0.4596,-0.0126,0.0615,0.0553,0.0259,0.05,0.0688,0.0265,5.5901,0.301,0.0201,0.0034,97.3051,62.379,0.4968,2.2593,90.9254,94.065,183.303,9.2096,-0.005,-0.0086,88.3011,27.5824,24.5203,0.139,0.0761,0.1271,0.0004,0.0053,0.1426,0.1271,3.1861,3.2624,0.1167,0,2.7271,2.6154,2.6049,0.0001,35.0995,35.5736,-212.8585,-212.6671,0,2.8503,-999.25,0.0607,4706.33,0.1271,0.1101,0.2514,0.0375,0.6009,68.8037,112.4893
10508.15,0.05,10508.2,14,4.2,67.9,0,0,1.6,4.6,6.8,0.6,2.7,0.8,26.6339,35.642,36.8653,34.5367,31.8959,40.0127,46.4523,44.3493,39.3526,39.2441,30.889,42.4093,44.2788,40.5235,34.5813,28.9547,38.9877,16.2149,0.0353,0.01,0.0137,0.0038,0.0139,0.0013,0,0,0,1546.36,2798.49,0.0072,0.0035,0.0008,0.0189,4651.19,185.3176,0.4673,-0.0117,-0.0162,-0.044,0.0555,0.0709,0.1629,0.0406,3.4121,0.1523,0.0115,0.0028,44.7415,62.379,0.4195,2.4646,41.7935,37.1069,183.303,9.2173,-0.0041,-0.0066,37.9201,135.008,121.3176,0.0855,0.06,0.094,0.0002,0.0014,0.0859,0.085,4.2884,4.131,0.0775,0.0239,2.7591,2.7853,2.7378,0.0001,200.5326,104.4858,-214.7886,-214.7025,0,3.5184,-999.25,0.0426,4602.17,0.0938,0.3633,0.3563,0.0215,0.2589,62.3668,106.9968
10508.2,0,10508.2,18,6,50,0,0,0,8,10,2,4,2,26.6339,35.642,36.8653,34.5367,31.8959,40.0127,46.4523,44.3493,39.3526,39.2441,30.889,42.4093,44.2788,40.5235,34.5813,28.9547,38.9877,16.2149,0.0353,0.01,0.0137,0.0038,0.0139,0.0013,0,0,0,1546.36,2798.49,0.0072,0.0035,0.0008,0.0189,4651.19,185.3176,0.4673,-0.0117,-0.0162,-0.044,0.0555,0.0709,0.1629,0.0406,3.4121,0.1523,0.0115,0.0028,44.7415,62.379,0.4195,2.4646,41.7935,37.1069,183.303,9.2173,-0.0041,-0.0066,37.9201,135.008,121.3176,0.0855,0.06,0.094,0.0002,0.0014,0.0859,0.085,4.2884,4.131,0.0775,0.0239,2.7591,2.7853,2.7378,0.0001,200.5326,104.4858,-214.7886,-214.7025,0,3.5184,-999.25,0.0426,4602.17,0.0938,0.3633,0.3563,0.0215,0.2589,62.3668,106.9968
10518.05,0.15,10518.2,46,23,3,0,1,3,12,1,2,8,1,57.2135,238.6249,475.6487,305.8387,328.5864,53.9721,222.3263,323.089,234.9414,266.6027,58.4466,300.8253,593.236,319.2273,375.0371,3.2697,288.9195,21.0945,0.037,0.001,0.0131,0.0163,0.0084,0.0001,0.0018,0.0001,0,1560.97,2467.82,0.0038,0.0038,0.0008,0.0268,4348.957,185.3176,0.398,-0.0117,0.082,0.0793,0,0.04,0.0967,0.0213,4.9106,0.2857,0.0142,0.0031,83.5034,61.2084,0.4475,2.0869,78.2476,84.9158,183.8063,9.148,-0.003,-0.001,77.9149,460.5525,412.4271,0.1106,0.0718,0.1076,0.0003,0.0003,0.1087,0.1052,3.5044,3.5022,0.1048,0,2.7153,2.5744,2.5697,0.0021,812.5981,788.4915,-219.392,-218.9699,0,5.343,-999.25,0.0409,4578.4,0.1076,0.1851,0.2009,0.0266,0.5874,67.956,109.4214
10520.2,0,10520.2,47,14,4,0,1,2,15,4,2,10,1,46.9287,123.7854,180.0811,137.4627,137.1535,48.1829,131.3592,162.1552,109.3251,118.4217,46.8738,127.9889,180.9498,135.0751,122.7654,7.2747,139.9653,16.7113,0.0306,0.0133,0.014,0.0029,0.0031,0.012,0.0003,0,0,1593.71,2474.38,0.015,0.004,0.0008,0.0182,4352.15,185.3176,0.4211,-0.0118,0.0781,0.0732,0,0.0396,0.0881,0.022,8.7512,0.2954,0.0062,0.0034,83.4414,60.0379,0.4498,2.1484,78.1072,88.8259,183.8063,9.1711,-0.0031,-0.0191,74.9697,272.777,244.2878,0.1098,0.0695,0.1071,0.0003,0.0105,0.1082,0.106,3.4113,3.4318,0.1037,0,2.7058,2.5848,2.5765,0.0005,366.3894,270.7239,-219.3162,-219.4082,0,4.0554,-999.25,0.0456,4637.2,0.107,0.1621,0.199,0.0117,0.6272,68.067,109.7214
10532.05,0.15,10532.2,52,14,4,0,1,2,12,2,3,9,1,40.0259,89.9354,113.856,94.63,95.9698,44.557,149.9308,166.0699,140.7842,148.4981,42.8169,120.5504,149.2604,115.9906,112.3702,10.5675,150.1454,12.7745,0.0239,0.0009,0.0015,0.0127,0.012,0.0021,0.0002,0,0,1541.39,3089.186,0.0053,0.0036,0.0008,0.0269,4833.87,185.3176,0.5136,-0.0116,0.0597,0.0572,0,0.0318,0.1096,0.0185,7.3438,0.2832,0.0025,0.0014,71.1979,62.379,0.4086,2.0945,66.3676,71.2461,183.8063,9.2636,-0.0033,-0.0103,63.1165,242.0258,216.9108,0.0648,0.0649,0.081,0.0003,0.0004,0.0747,0.0686,3.5458,3.3814,0.0793,0,2.6987,2.6123,2.6078,0.0053,336.9662,330.8481,-218.0294,-217.802,0,9.5321,-999.25,0.0293,4616,0.081,0.2198,0.1597,0.0047,0.6158,65.9791,107.2011
10546.575,0.12,10546.7,43,14,3,0,0,3,18,4,1,10,4,51.571,213.1008,430.6216,313.1791,259.3682,56.2704,362.3888,419.8539,269.1389,270.679,53.663,291.0594,477.4125,328.2974,262.8963,3.1931,300.4494,13.5616,0.0454,0.0115,0.0182,0.0132,0.0033,0.0048,0.0012,0,0,1538.2,1875.02,0.0068,0.0039,0.0008,0.0225,3844.56,185.3176,0.5205,-0.0134,0.0928,0.1054,0.0643,0.0528,0.1104,0.0279,8.6238,0.2478,0.0232,0.0031,114.3726,61.2084,0.4971,1.6612,106.5798,122.4581,184.3096,9.2705,-0.0086,-0.0413,116.1331,441.7051,395.6688,0.1649,0.1591,0.1469,0.0003,0.0017,0.1564,0.1603,3.6669,3.7938,0.1375,0,2.7405,2.5298,2.5513,0.0047,704.1147,682.6696,-220.3015,-220.3479,0,3.1912,-999.25,0.0522,4595.5,0.147,0.2219,0.2654,0.0435,0.4692,69.7367,114.8234
10548.1,0.1,10548.2,25,55,1,0,1,1,9,1,1,4,2,41.7308,106.3472,148.0174,124.0964,113.2434,50.7689,104.3637,113.9891,99.059,98.5487,44.7416,132.6009,170.8361,134.7299,118.5327,8.0583,108.6354,14.1769,0.0425,0.0186,0.013,0.007,0.0074,0.0046,0,0,0.0001,1544.92,2232.53,0.0081,0.0037,0.0008,0.019,4114.28,185.3176,0.5097,-0.0127,0.0753,0.0832,0.0319,0.0487,0.1232,0.027,6.881,0.2386,0.0117,0.0028,100.6103,60.0379,0.4441,1.4954,93.8009,97.4837,184.3096,9.2597,-0.0063,-0.0169,93.7747,397.3578,355.7845,0.1206,0.1286,0.1181,0.0002,0.0024,0.1235,0.1188,3.7954,3.8643,0.1122,0.1646,2.7276,2.5678,2.5812,0.0001,523.8635,483.5599,-219.6305,-219.3366,0,2.4933,-999.25,0.0506,4605.667,0.1179,0.2564,0.2449,0.022,0.4767,68.4855,113.9884
10554.75,0.05,10554.8,30,29,7,0,0,1,21,4,1,4,3,25.8052,39.0499,42.2479,39.9319,37.893,25.4605,38.7292,41.7118,38.5862,38.0107,24.88,38.6638,41.3774,39.3851,37.9463,25.0426,40.6474,13.1523,0.0407,0.0121,0.0158,0.0066,0.0094,0.0007,0.0001,0.0001,0.0008,1549.405,3105.06,0.0048,0.0038,0.0008,0.0177,4789.2,185.3176,0.4981,-0.0114,0.0056,0.0066,0,0.0485,0.1812,0.027,2.1003,0.1712,0.0132,0.0021,83.8522,60.0379,0.4552,2.2269,78.2179,80.8882,184.3096,9.2481,-0.0025,0.0054,72.9901,47.1142,41.9558,0.084,0.0716,0.0783,0.0002,0.0006,0.0771,0.0801,4.3687,4.2627,0.0701,0.1757,2.7391,2.6987,2.7003,0.0001,60.0913,58.6098,-215.2096,-215.1341,0,2.9941,-999.25,0.0455,4587.167,0.0783,0.4125,0.2437,0.0247,0.319,62.7334,107.27
10570.15,0.15,10570.3,35.5,45.2,5.6,0,0,1.1,2.9,1,0.8,7.6,0.8,34.3657,71.9647,82.7919,71.3801,65.833,35.8775,53.1167,58.755,50.041,50.4346,34.5786,69.2708,76.698,67.2958,57.9766,14.0095,57.7663,15.0145,0.0319,0.0155,0.0148,0.0016,0,0.0062,0.0021,0,0,1544.27,4213.01,0.0084,0.0039,0.0008,0.01,5602.19,185.3176,0.3056,-0.0093,0.0122,0.008,0.0036,0.0312,0.1491,0.0167,4.5695,0.2395,0.0125,0.0016,67.932,62.379,0.3873,2.5579,63.9259,70.8177,184.3096,9.0556,-0.0008,-0.0137,62.2701,105.613,94.3454,0.0485,0.0187,0.0531,0.0001,0.0018,0.0424,0.0508,3.7176,3.7474,0.0503,0,2.7139,2.6963,2.6891,0.0001,135.166,109.1033,-221.0663,-220.9563,0,2.6451,-999.25,0.0402,4589.167,0.053,0.3261,0.1568,0.0234,0.4936,58.685,98.741
10580.85,0.05,10580.9,48,29,4,0,0,0,3,2,3,11,0,43.6002,114.7191,151.9609,122.4512,108.0765,47.8745,240.4911,171.3087,142.7183,147.7841,50.3992,155.6813,207.6729,183.5905,159.546,8.1665,138.2317,16.1845,0.0189,0.0042,0.0025,0.0084,0.0069,0.0097,0.0014,0,0.0007,1549.03,4852.07,0.0148,0.0042,0.0008,0.027,5758.02,185.3176,0.2617,-0.0084,0.0473,0.0429,0.0122,0.0216,0.1319,0.011,3.0915,0.2768,0.0094,0.0024,81.698,60.0379,0.3729,2.6534,77.0354,77.0652,184.3096,9.0117,-0.0043,-0.0136,77.2826,207.3611,185.9036,0.0241,0.0904,0.0365,0.0008,0.0059,0.0279,0.0264,3.489,3.5784,0.0419,0.4241,2.6966,2.6366,2.6292,0.0079,291.6848,399.0583,-221.5074,-221.815,0,12.175,-999.25,0.0338,4666.167,0.0365,0.2798,0.1085,0.0175,0.5942,58.4901,97.0506
10580.9,0,10580.9,47,33.6,4.4,0,0,1,2.7,1.6,0.4,9.4,0.6,43.6002,114.7191,151.9609,122.4512,108.0765,47.8745,240.4911,171.3087,142.7183,147.7841,50.3992,155.6813,207.6729,183.5905,159.546,8.1665,138.2317,16.1845,0.0189,0.0042,0.0025,0.0084,0.0069,0.0097,0.0014,0,0.0007,1549.03,4852.07,0.0148,0.0042,0.0008,0.027,5758.02,185.3176,0.2617,-0.0084,0.0473,0.0429,0.0122,0.0216,0.1319,0.011,3.0915,0.2768,0.0094,0.0024,81.698,60.0379,0.3729,2.6534,77.0354,77.0652,184.3096,9.0117,-0.0043,-0.0136,77.2826,207.3611,185.9036,0.0241,0.0904,0.0365,0.0008,0.0059,0.0279,0.0264,3.489,3.5784,0.0419,0.4241,2.6966,2.6366,2.6292,0.0079,291.6848,399.0583,-221.5074,-221.815,0,12.175,-999.25,0.0338,4666.167,0.0365,0.2798,0.1085,0.0175,0.5942,58.4901,97.0506
10590.85,0.05,10590.9,46,15.1,6.1,0,0.3,2.7,10,11.3,2.2,8.6,3,31.3226,56.3905,63.3792,55.5824,54.605,30.6998,49.0173,52.2085,46.6765,47.9365,29.7872,51.0241,56.1924,49.2471,49.3457,17.9913,52.6342,10.8862,0.0391,0.0176,0.0131,0.0038,0.0099,0.0038,0,0,0.0008,1568.25,2418.64,0.0099,0.0039,0.0008,0.0182,4166.73,185.3176,0.2209,-0.0104,0.0532,0.0503,0.0217,0.0495,0.073,0.0267,7.4092,0.2966,0.0168,0.0032,128.6892,62.379,0.4875,2.1229,121.5733,130.7778,184.4774,8.9709,-0.0048,-0.0183,118.7803,52.4398,46.7238,0.0983,0.0932,0.1035,0.0002,0.0037,0.1079,0.1014,3.4192,3.4964,0.0974,0.0871,2.7243,2.624,2.6191,0.0001,66.9239,71.6154,-222.5882,-222.6222,0,2.8744,-999.25,0.049,4587.2,0.1037,0.1213,0.2489,0.0314,0.5983,64.9876,107.6118
10590.9,0,10590.9,44,12,5,0,0,2,14,6,5,10,2,31.3226,56.3905,63.3792,55.5824,54.605,30.6998,49.0173,52.2085,46.6765,47.9365,29.7872,51.0241,56.1924,49.2471,49.3457,17.9913,52.6342,10.8862,0.0391,0.0176,0.0131,0.0038,0.0099,0.0038,0,0,0.0008,1568.25,2418.64,0.0099,0.0039,0.0008,0.0182,4166.73,185.3176,0.2209,-0.0104,0.0532,0.0503,0.0217,0.0495,0.073,0.0267,7.4092,0.2966,0.0168,0.0032,128.6892,62.379,0.4875,2.1229,121.5733,130.7778,184.4774,8.9709,-0.0048,-0.0183,118.7803,52.4398,46.7238,0.0983,0.0932,0.1035,0.0002,0.0037,0.1079,0.1014,3.4192,3.4964,0.0974,0.0871,2.7243,2.624,2.6191,0.0001,66.9239,71.6154,-222.5882,-222.6222,0,2.8744,-999.25,0.049,4587.2,0.1037,0.1213,0.2489,0.0314,0.5983,64.9876,107.6118
10600.85,0.05,10600.8,45.4,22.9,7.3,0,0,2.4,7,5.9,2.5,8,1.4,45.7178,128.6171,194.3647,152.4351,134.4904,48.408,136.6266,176.8183,119.6315,122.9094,47.0207,139.3317,209.1738,166.5519,128.0236,6.5602,145.0317,14.9485,0.0199,0,0.0053,0.011,0.006,0.0053,0.0007,0,0.0009,1530.56,5416.311,0.0093,0.0041,0.0008,0.0239,6203.2,185.3176,0.2386,-0.0081,0.0288,0.026,0,0.0288,0.1484,0.0166,4.7522,0.2434,0.0029,0.0014,58.7673,61.2084,0.3654,1.9275,55.4724,59.2985,184.8129,8.9886,-0.0006,0.0012,60.3504,184.84,165.3022,0.0233,-0.0008,0.0318,0.0004,0.001,0.0233,0.0263,3.8233,3.8856,0.0317,0.3668,2.7023,2.6655,2.6608,0.0001,236.8479,266.246,-224.9356,-225.1749,0,11.8631,-999.25,0.0292,4600.2,0.0318,0.3241,0.1447,0.0055,0.5256,57.9046,95.9599
10604.7,0.1,10604.8,0,0,0,0,1,13,73,13,0,0,0,30.3995,53.1226,60.8889,55.9288,53.8937,28.4085,49.2381,52.616,46.588,47.0144,29.5163,51.3319,57.0693,53.7786,50.481,17.8799,51.8991,12.8002,0.0307,0.0031,0.0138,0.0105,0.0073,0.0046,0,0,0.0012,1554.81,2861.57,0.0098,0.0042,0.0008,0.0236,4579.06,185.3176,0.348,-0.0107,0.041,0.0371,0,0.0499,0.0895,0.0269,6.4669,0.2767,0.0196,0.0021,112.2071,61.2084,0.4563,2.9338,105.3854,108.0853,184.8129,9.098,-0.0022,-0.0117,103.8866,56.5335,50.3901,0.0919,0.0401,0.0867,0.0004,0.0027,0.0896,0.086,3.5273,3.5362,0.082,0.3276,2.731,2.6466,2.6399,0.0001,72.1776,70.4538,-223.1231,-222.8175,0,5.9891,-999.25,0.0405,4573,0.0866,0.1657,0.2506,0.0367,0.5471,65.5445,106.2497
10610.85,0.05,10610.8,35.5,47,4.3,0.5,0,1.2,2.1,1.2,0.6,7,1.1,36.7152,83.0999,105.86,93.5365,84.0496,33.6405,68.217,79.7414,71.025,71.314,36.6183,78.3501,98.8095,89.2006,78.1777,10.691,85.1372,9.0721,0.0257,0.0075,0.0034,0.0092,0.0062,0,0,0.0002,0.0012,1560.67,3397,0.002,0.0038,0.0008,0.0168,5060.68,185.3176,0.3672,-0.0104,0.0485,0.0634,0.0624,0.0292,0.1678,0.0157,2.8151,0.2211,0.0084,0.0024,80.252,60.0379,0.3968,2.5006,75.3067,76.8082,184.8129,9.1172,-0.0082,-0.0454,77.164,85.0251,75.9068,0.0902,0.1534,0.0723,0,0,0.0625,0.0893,3.6407,3.8707,0.0706,0.4177,2.7103,2.6016,2.6271,0.0001,108.7432,129.1289,-221.267,-221.569,0,4.5449,-999.25,0.0277,4608.667,0.0723,0.3764,0.1466,0.0156,0.4614,58.4283,99.5323
10620.15,0.15,10620.3,30,8,34,0,0,1,15,4,2,5,1,25.7208,39.7005,44.2421,41.1005,38.9645,27.6634,39.7137,42.9554,38.7694,38.8908,27.097,42.4736,47.1035,43.3465,40.4765,24.3306,41.3819,11.8637,0.038,0.0228,0.0121,0.002,0.0038,0.0063,0.0001,0,0,1533.65,2336.59,0.0091,0.0036,0.0008,0.0122,4226.51,185.3176,0.4558,-0.0122,0.0155,-0.0075,0.0276,0.0577,0.1262,0.0333,7.4634,0.2182,0.0071,0.0024,74.1551,61.2084,0.4609,1.9919,69.3053,68.9936,184.8129,9.2058,-0.0033,-0.0026,65.9307,52.2694,46.572,0.1077,0.0327,0.1137,0.0001,0.0028,0.1105,0.1087,3.6347,3.6723,0.0978,0,2.7342,2.7228,2.6834,0.0001,66.7064,70.9865,-221.3714,-220.7322,0,1.9314,-999.25,0.0471,4635.2,0.1136,0.2645,0.29,0.0132,0.4324,66.5906,108.8158
10622.275,0.02,10622.3,42,6,2,0.1,0,1,22,10,6,9,2,21.7098,31.8085,34.858,33.5508,32.0324,18.0651,23.2184,24.5388,23.6856,23.7738,18.6046,24.8129,26.8881,26.4013,24.9358,29.8056,24.9045,12.2117,0.0356,0.0163,0.0137,0.0013,0.0113,0.0034,0,0,0,1536.244,2299.65,0.0104,0.0035,0.0008,0.016,4087.02,185.3176,0.4697,-0.0122,0.0493,0.0459,0.0262,0.051,0.0809,0.0277,8.9101,0.2845,0.015,0.0035,98.3561,61.2084,0.4861,2.4722,91.8657,91.1008,184.8129,9.2197,-0.0046,-0.0191,90.734,27.4823,24.432,0.1251,0.0783,0.1094,0.0001,0.0038,0.1177,0.1219,3.2476,3.403,0.1012,0.0732,2.7255,2.6315,2.6256,0.0001,34.9733,34.7649,-221.5714,-221.5199,0,2.7097,-999.25,0.046,4665.5,0.1094,0.1427,0.2564,0.028,0.5729,67.4051,108.6125
10630.15,0.15,10630.3,46,10,3,0,0,1,16,6,6,10,2,36.6406,82.4835,109.6909,97.2101,90.6672,36.6922,82.6701,96.8391,84.8856,87.3036,36.3682,81.978,109.5802,97.4957,89.0231,10.287,99.6848,14.811,0.0554,0.0157,0.0144,0.0191,0.0066,0,0.001,0.0007,0,1551.79,2403.78,0.0021,0.0038,0.0008,0.0275,4218.11,185.3176,0.4442,-0.012,0.0536,0.0509,0.0178,0.0506,0.055,0.0266,6.3198,0.3163,0.0182,0.0046,103.5063,60.0379,0.5083,2.4685,96.7877,102.805,184.8129,9.1942,-0.0047,0.0066,96.0759,96.9567,86.5963,0.1132,0.0803,0.1065,0.0003,0.0002,0.1073,0.1052,3.4562,3.4691,0.0997,0,2.7227,2.623,2.6183,0.0001,124.0618,134.0715,-227.4697,-227.6983,0,2.781,-999.25,0.0575,4585,0.1064,0.0729,0.2544,0.034,0.6386,67.177,107.6725
10630.15,0.15,10630.3,48,11.4,5.5,0,0,3.6,11.6,10.8,2.7,8.2,3.3,36.6406,82.4835,109.6909,97.2101,90.6672,36.6922,82.6701,96.8391,84.8856,87.3036,36.3682,81.978,109.5802,97.4957,89.0231,10.287,99.6848,14.811,0.0554,0.0157,0.0144,0.0191,0.0066,0,0.001,0.0007,0,1551.79,2403.78,0.0021,0.0038,0.0008,0.0275,4218.11,185.3176,0.4442,-0.012,0.0536,0.0509,0.0178,0.0506,0.055,0.0266,6.3198,0.3163,0.0182,0.0046,103.5063,60.0379,0.5083,2.4685,96.7877,102.805,184.8129,9.1942,-0.0047,0.0066,96.0759,96.9567,86.5963,0.1132,0.0803,0.1065,0.0003,0.0002,0.1073,0.1052,3.4562,3.4691,0.0997,0,2.7227,2.623,2.6183,0.0001,124.0618,134.0715,-227.4697,-227.6983,0,2.781,-999.25,0.0575,4585,0.1064,0.0729,0.2544,0.034,0.6386,67.177,107.6725
10634.8,0,10634.8,39,13,12,0,0,2,16,4,5,8,1,35.8156,77.2424,100.6152,86.7232,84.0491,37.3933,89.183,101.9365,90.7034,93.8432,35.5515,78.3095,100.89,84.0201,78.3044,11.5309,102.6015,16.7227,0.0525,0.0155,0.0181,0.0115,0.0108,0.0005,0,0.0012,0.0008,1547.81,2583.741,0.0059,0.0041,0.0008,0.0248,4367.62,185.3176,0.4057,-0.0115,0.0368,0.0375,0,0.0476,0.1031,0.0244,7.8448,0.2658,0.0246,0.0032,144.412,60.0379,0.4809,2.3647,135.2751,134.348,184.8129,9.1557,-0.0014,-0.0047,129.513,105.7588,94.4793,0.1023,0.0217,0.0981,0.0004,0.0015,0.1017,0.109,3.6894,3.7082,0.0905,0.0303,2.7345,2.6458,2.6471,0.0001,135.3583,132.4807,-230.5846,-230.7921,0,3.102,-999.25,0.0584,4616.8,0.0981,0.2025,0.2393,0.046,0.5122,63.7195,104.7812
10639.9,0,10639.9,30.7,50,3.4,0,0,1.7,3.4,1.2,1.1,8.5,0.6,46.6637,144.0719,296.9708,296.6862,230.0982,61.19,260.6033,299.9638,235.9435,243.184,51.869,195.4915,278.8363,243.8365,217.6996,3.3706,214.4059,15.165,0.0159,0.0065,0.0018,0.0046,0.0033,0.0039,0.0033,0,0,1547.36,6149.94,0.0076,0.004,0.0008,0.0152,6543.3,185.3176,0.3403,-0.0081,0.0297,0.0236,0.0294,0.0254,0.2103,0.0137,4.3817,0.1781,0.0064,0.0024,43.1647,61.2084,0.374,2.5448,40.5547,44.5704,185.3162,9.0903,-0.0041,-0.0198,39.9831,466.5062,417.5687,0.0173,0.1058,0.022,0.0001,0.0001,0.0132,0.015,4.3696,4.3001,0.0257,0.0002,2.7114,2.6697,2.6593,0.005,1247.14,1870.88,-232.2054,-232.0971,0,7.2904,-999.25,0.0235,4625.17,0.0221,0.4908,0.1275,0.0119,0.3699,56.8155,94.556
10639.95,0.05,10639.9,30,51,2,0,0,1,2,2,3,8,1,46.6637,144.0719,296.9708,296.6862,230.0982,61.19,260.6033,299.9638,235.9435,243.184,51.869,195.4915,278.8363,243.8365,217.6996,3.3706,214.4059,15.165,0.0159,0.0065,0.0018,0.0046,0.0033,0.0039,0.0033,0,0,1547.36,6149.94,0.0076,0.004,0.0008,0.0152,6543.3,185.3176,0.3403,-0.0081,0.0297,0.0236,0.0294,0.0254,0.2103,0.0137,4.3817,0.1781,0.0064,0.0024,43.1647,61.2084,0.374,2.5448,40.5547,44.5704,185.3162,9.0903,-0.0041,-0.0198,39.9831,466.5062,417.5687,0.0173,0.1058,0.022,0.0001,0.0001,0.0132,0.015,4.3696,4.3001,0.0257,0.0002,2.7114,2.6697,2.6593,0.005,1247.14,1870.88,-232.2054,-232.0971,0,7.2904,-999.25,0.0235,4625.17,0.0221,0.4908,0.1275,0.0119,0.3699,56.8155,94.556
10640.25,0.15,10640.4,26.6,53.4,4.1,0,0,1.9,3.8,1.3,0.6,8.4,0.5,45.5661,136.2589,271.6453,267.5558,222.3086,63.3918,124.2637,143.2946,140.3018,143.1814,50.8878,149.8218,233.9416,199.7572,219.6463,3.7375,143.6394,16.7103,0.0144,0.0037,0.0004,0.0061,0.0048,0.0043,0.0029,0,0,1545.87,6636.31,0.0079,0.004,0.0008,0.0182,6779.37,185.3176,0.3403,-0.0079,0.0155,0.0157,0.0118,0.025,0.2253,0.0137,4.6937,0.161,0.005,0.0024,37.691,61.2084,0.3562,2.7245,35.412,42.0904,185.3162,9.0903,0.001,0.0077,37.5623,408.5619,366.3673,0.0113,0.0632,0.0174,0.0001,0,0.0098,0.0125,4.4174,4.3832,0.0174,0.0866,2.7123,2.6832,2.6835,0.0035,1849.39,1786.61,-231.8787,-232.0489,0,11.588,-999.25,0.0223,4655.33,0.0174,0.5311,0.1258,0.0094,0.3338,56.8463,94.5293
10660.55,0.15,10660.4,32,3,14,0,0,1,20,11,6,10,3,33.249,63.9339,75.4941,66.9799,62.1119,28.8443,50.4938,52.5936,44.4327,44.9082,30.4988,53.8708,60.4797,54.3897,51.2406,14.9299,51.1723,9.8561,0.0294,0.0196,0.0078,0.001,0.0053,0.0119,0.0001,0,0,1541.07,3372.29,0.0162,0.004,0.0008,0.0183,5099.39,187.2392,0.3079,-0.0101,0.024,0.0251,0,0.0434,0.101,0.0251,5.9319,0.2729,0.0031,0.0025,92.6413,60.0379,0.4386,2.4111,87.1688,90.3202,185.3162,9.0579,-0.0029,0.0012,87.5619,51.9401,46.2833,0.094,0.0512,0.0754,0.0002,0.0134,0.0819,0.0985,3.5211,3.4583,0.0705,0.3704,2.71,2.6671,2.669,0.0001,66.2936,67.9512,-228.8493,-229.0675,0,3.3978,-999.25,0.0456,4652,0.0755,0.1968,0.218,0.0058,0.5795,60.6847,98.8954
10668.15,0.15,10668,32,4,4,0,1,3,29,8,7,11,1,31.0851,49.0667,54.7519,51.4859,49.0142,27.577,40.2669,42.0097,38.6402,38.162,30.5679,48.2003,53.1375,49.883,47.7331,19.4228,41.1979,13.1986,0.0304,0.0114,0.01,0.005,0.0057,0.0003,0,0,0.0014,1551.1,3042.34,0.0034,0.0039,0.0008,0.0124,4919.63,187.2941,0.3772,-0.011,0.0443,0.0482,0,0.0437,0.0575,0.0243,7.7547,0.324,0.009,0.003,94.1287,60.0379,0.4614,2.363,88.2879,92.3922,185.8195,9.1272,-0.001,0.0082,99.8323,49.0847,43.911,0.1282,0.0177,0.0885,0,0.0002,0.0988,0.1208,3.3861,3.34,0.0838,0,2.7081,2.6276,2.6343,0.0031,65.2486,69.7811,-225.9179,-226.0309,0,2.8759,-999.25,0.0338,4607.67,0.0884,0.0797,0.2199,0.0167,0.6837,64.6378,104.4091
10676.5,0,10676.5,0,0,0,0,1,6,64,29,0,0,0,23.1043,32.8379,34.7245,33.2019,32.1059,19.6794,26.6872,27.3246,25.4172,25.3099,21.1398,28.7245,29.8617,28.6664,27.9066,30.1187,27.3452,13.7603,0.044,0.0073,0.0211,0.0148,0.001,0.0063,0.0006,0,0,1549.18,2353.92,0.0071,0.0036,0.0008,0.0227,4260.84,187.2941,0.3248,-0.0114,0.0549,0.0512,0.0273,0.0498,0.0422,0.0275,6.8185,0.3315,0.0102,0.004,100.6337,58.8674,0.5015,2.6151,94.6156,99.5749,185.8195,9.0748,-0.0039,-0.0231,98.6637,32.558,28.9615,0.1469,0.0675,0.1146,0.0003,0.0018,0.121,0.1394,3.3797,3.3216,0.1062,0.024,2.7127,2.6224,2.616,0.0001,41.4668,42.73,-223.9467,-223.9953,0,3.4859,-999.25,0.0511,4602.5,0.1146,0.0385,0.2503,0.0191,0.6922,67.1096,108.4906
10680.15,0.15,10680,59,1,2,0,0,1,15,3,9,9,1,31.0601,50.3798,55.3055,52.0946,48.6574,32.5336,54.4547,60.373,51.239,51.3093,31.4714,51.662,57.5334,53.3056,47.5188,19.1959,55.939,16.5923,0.034,0.014,0.0031,0.0093,0.0104,0.0004,0.0007,0.0003,0.0001,1552.2,2546.08,0.0043,0.0038,0.0008,0.0212,4341.74,187.2941,0.3264,-0.011,0.082,0.0865,0.1033,0.0465,0.0391,0.0255,7.0446,0.3409,0.0122,0.0032,94.2309,60.0379,0.4745,2.6407,88.5895,94.628,185.8195,9.0764,-0.0113,-0.0465,89.5176,76.6841,68.5068,0.0908,0.1576,0.1006,0.0001,0.0004,0.1047,0.096,3.0356,3.109,0.0987,0.0979,2.7109,2.5621,2.5698,0.0001,99.4558,80.7762,-227.1342,-226.432,0,3.3185,-999.25,0.0383,4610.2,0.1006,0.0302,0.2338,0.0228,0.7132,67.6226,108.6318
10694.15,0.15,10694,31.7,51.7,2.9,0.2,0,1,3.6,0.7,1.2,6.2,1.1,48.519,154.4692,215.6332,167.4571,159.8983,49.0954,251.0859,229.1617,176.9356,177.5581,49.3449,244.4893,326.3373,260.0305,214.0074,5.9717,193.4732,15.7824,0.0182,0.0016,0.0053,0.0101,0.0013,0.0028,0.0006,0,0,1565.3,4471.58,0.0035,0.0033,0.0008,0.0148,5531.46,187.2941,0.294,-0.0088,0.0258,0.0198,0,0.0329,0.1694,0.0164,5.3308,0.214,0.0197,0.0023,73.3131,61.2084,0.3949,2.1061,69.0263,70.7122,185.8195,9.044,-0.0009,0.0143,59.0025,406.1068,364.1088,0.0232,0.0229,0.0423,0,0,0.0312,0.0231,4.0554,3.9101,0.0416,0.3299,2.7253,2.6761,2.6659,0.0042,1061.9,400.1904,-234.1471,-234.1121,0,6.2469,-999.25,0.0217,4668.17,0.0422,0.3808,0.1653,0.0353,0.4187,58.0801,99.1872
10696,0,10696,34.7,52.6,2.7,0,0,0.7,2.2,0.4,0.9,5.4,0.5,56.2392,248.6861,549.3769,345.7141,290.9183,59.9403,308.6447,474.231,419.9236,468.0411,59.2771,314.7405,580.4482,433.0948,337.6944,2.8926,467.7003,20.2015,0.0071,0.0009,0.0001,0.0018,0.0091,0.0072,0.0002,0,0.0005,1560.46,6043.56,0.0127,0.0041,0.0008,0.0188,6522.59,187.2941,0.2825,-0.0079,0.0349,0.029,0,0.0184,0.2261,0.0085,3.6074,0.173,0.015,0.0006,57.5972,58.8674,0.3176,1.9785,54.2581,53.6152,185.8195,9.0325,-0.0038,-0.0215,49.4272,382.3198,343.0896,0.0117,0.1282,0.0242,0.0004,0,0.014,0.0142,4.5538,4.4299,0.0293,0,2.7148,2.6603,2.6503,0.0079,4327.53,3175.57,-234.5423,-234.429,0,25.1733,-999.25,0.0197,4673.2,0.0241,0.5331,0.0925,0.0183,0.356,55.3798,94.6798
10696.05,0.05,10696,29,56,1,0,0,1,2,1,3,6,1,56.2392,248.6861,549.3769,345.7141,290.9183,59.9403,308.6447,474.231,419.9236,468.0411,59.2771,314.7405,580.4482,433.0948,337.6944,2.8926,467.7003,20.2015,0.0071,0.0009,0.0001,0.0018,0.0091,0.0072,0.0002,0,0.0005,1560.46,6043.56,0.0127,0.0041,0.0008,0.0188,6522.59,187.2941,0.2825,-0.0079,0.0349,0.029,0,0.0184,0.2261,0.0085,3.6074,0.173,0.015,0.0006,57.5972,58.8674,0.3176,1.9785,54.2581,53.6152,185.8195,9.0325,-0.0038,-0.0215,49.4272,382.3198,343.0896,0.0117,0.1282,0.0242,0.0004,0,0.014,0.0142,4.5538,4.4299,0.0293,0,2.7148,2.6603,2.6503,0.0079,4327.53,3175.57,-234.5423,-234.429,0,25.1733,-999.25,0.0197,4673.2,0.0241,0.5331,0.0925,0.0183,0.356,55.3798,94.6798
10700.15,0.05,10700.2,37.3,41.1,6.4,0,0,1,3.7,1,1.4,8,0.6,58.6128,373.2927,1473.78,751.536,495.8952,59.3796,431.6932,1458.12,496.6201,522.505,59.2199,395.956,1789.56,797.503,484.6501,1.3306,636.3303,16.1193,0.0187,0.0006,0.0041,0.0113,0.0028,0.0027,0.0027,0.0007,0.0003,1559.77,7076.64,0.0065,0.004,0.0008,0.0205,7048.67,187.2941,0.2987,-0.0076,0.0207,0.0267,0,0.0159,0.2283,0.0085,2.2889,0.1735,0.0064,0.0007,40.6909,61.2084,0.3147,2.3455,38.3035,40.3018,185.8195,9.0487,0.0018,-0.0017,36.024,399.7741,358.5162,0.0154,-0.0849,0.0147,0.0002,0.0003,0.0095,0.0178,4.4956,4.4576,0.0175,0.4868,2.7051,2.6644,2.6746,0.0084,2485.07,1921.09,-234.1618,-233.8326,0,11.009,-999.25,0.0252,4699.167,0.0147,0.5391,0.0798,0.012,0.369,54.3739,92.0912
10703.85,0.15,10703.7,33.8,26,10,0,1.2,0,15.1,6.2,1.4,5.8,0.5,42.0604,99.6486,131.8646,111.0445,106.8396,36.2245,78.1547,91.6304,78.0437,79.725,41.5622,100.3684,129.5179,106.9855,102.2056,9.0054,97.0778,14.49,0.0353,0.0155,0.014,0.0035,0.0045,0.0024,0.0002,0.0006,0.0011,1563.55,4561.06,0.0064,0.004,0.0008,0.0122,5706.37,187.2941,0.294,-0.0089,0.0211,0.0259,0,0.0363,0.1682,0.0187,3.912,0.2092,0.0149,0.0035,82.4294,58.8674,0.4089,2.3733,77.6095,78.1398,185.8195,9.044,0.0005,0.0173,73.4791,97.7504,87.3123,0.0593,-0.0275,0.0439,0.0001,0.001,0.0434,0.0551,3.9437,4.0981,0.0428,0.5622,2.7236,2.6657,2.6739,0.0001,125.0886,155.5939,-231.068,-230.9952,0,2.575,-999.25,0.0417,4678.5,0.0438,0.3774,0.1823,0.0279,0.4124,60.8039,99.7737
10710.1,0.1,10710.2,27.1,60.8,1.4,0,0,1.1,1.9,1,1.2,5.1,0.9,43.0875,107.3557,132.6033,120.055,113.513,54.2802,210.7529,338.0633,302.8571,304.323,52.4669,195.9649,209.2495,214.0785,212.1149,8.3295,249.7857,15.6753,0.0037,0,0,0,0.0077,0.003,0,0.0002,0.0028,1550.86,5611.01,0.0101,0.0042,0.0008,0.0138,6345.292,187.2941,0.2478,-0.008,0.011,0.0108,0,0.0295,0.213,0.0149,0.3182,0.1687,0.0184,0.0014,53.6289,63.5495,0.3596,2.531,50.6005,42.924,186.3228,8.9978,-0.0016,0.0025,47.054,398.6589,357.5115,0.023,0.0448,0.0301,0.0006,0,0.016,0.0219,4.5558,4.4154,0.0294,0,2.7283,2.6915,2.6912,0.0097,1937.52,1906.51,-225.0993,-224.5886,0,63.1492,-999.25,0.0138,4610.33,0.0301,0.498,0.1484,0.0319,0.3217,59.1059,100.3198
10720.75,0.05,10720.7,22.9,61,3.3,0.4,0,1.2,2.2,0.7,0.8,7.4,0.4,43.8184,153.0653,226.4372,180.8844,159.4294,47.6949,211.2914,317.3164,202.9157,208.5646,46.4928,205.0249,303.1731,240.0199,210.3335,5.5284,232.5299,12.9534,0.0155,0.0005,0.0011,0.0053,0.0161,0.0047,0,0,0.0017,1545.96,5101.76,0.0139,0.0042,0.0008,0.0278,6043.26,187.2941,0.2748,-0.0084,0.015,0.0145,0,0.0291,0.2044,0.0158,3.1748,0.1784,0.0097,0.0015,45.3933,61.2084,0.3669,2.4349,42.7769,38.0958,186.3228,9.0248,-0.0009,-0.0081,43.2504,392.3508,351.8344,0.0319,0.012,0.0361,0.0012,0.0017,0.0242,0.0318,4.4392,4.3826,0.0353,0.3305,2.7184,2.6852,2.6844,0.0074,574.5547,645.7428,-225.6286,-225.7074,0,20.0822,-999.25,0.0294,4724,0.0361,0.4748,0.1461,0.0182,0.3609,56.5894,95.7869
10740.15,0.05,10740.2,48,15,1,0,0,2,13,7,5,8,1,27.8252,45.357,48.6715,43.9205,41.1256,29.2193,67.6458,61.8359,51.4519,50.3789,28.9156,52.3284,56.1707,49.2425,45.9211,22.7684,53.316,11.0709,0.0408,0.0047,0.0101,0.0192,0.0073,0,0.0025,0.0008,0,1558.41,3103.76,0.0037,0.0041,0.0008,0.0298,4689.22,187.2941,0.2132,-0.0096,0.0382,0.0338,0.0104,0.0429,0.0862,0.0224,5.2021,0.2932,0.0169,0.0036,85.6555,58.8674,0.4538,2.3213,80.948,86.648,186.8261,8.9632,-0.0017,0.0087,75.4111,84.9356,75.8362,0.0627,0.034,0.0761,0.0004,0.0003,0.0802,0.0666,3.5669,3.488,0.0728,0,2.7189,2.6521,2.6447,0.0001,108.6433,89.0514,-221.7482,-221.9056,0,5.1879,-999.25,0.0445,4677.8,0.0761,0.1569,0.2155,0.0317,0.5959,64.9115,105.7708
10740.85,0.15,10740.7,41,6,1,0,0,1,26,12,4,8,1,26.1672,41.0743,43.8391,40.2928,37.4387,20.9012,30.8348,30.6696,26.6991,26.4384,24.1891,36.9213,38.4107,35.9086,32.5192,24.8183,29.2248,10.7834,0.0394,0.005,0.0117,0.0135,0.0132,0.0006,0.0005,0.0012,0.0004,1554.53,2800.68,0.0066,0.0041,0.0008,0.0293,4593.86,187.2941,0.217,-0.0101,0.0402,0.0506,0,0.0454,0.0597,0.0236,5.4147,0.32,0.0175,0.0044,96.8448,58.8674,0.503,2.1256,91.506,95.0158,186.8261,8.967,-0.0007,0.006,100.8817,39.8857,35.5053,0.115,0.0144,0.0927,0.0006,0.0013,0.1006,0.1094,3.3491,3.4088,0.0867,0.1092,2.7172,2.6235,2.6412,0.0001,50.847,54.4249,-222.0974,-222.1,0,5.6216,-999.25,0.0459,4775.33,0.0926,0.0855,0.2282,0.0328,0.6534,65.2228,106.1302
10750.15,0.05,10750.2,51,27,2,0,0,1,11,3,1,3,1,28.9453,44.3762,45.4643,41.2929,40.0559,27.3637,33.5461,33.3339,30.7735,30.9506,29.3356,40.3776,40.3647,36.0992,34.6605,24.2172,33.0895,15.5443,0.0287,0.0096,0.0069,0.0058,0.0111,0.004,0.0001,0.0003,0,1545.07,2758.2,0.0092,0.0039,0.0008,0.0214,4641.334,187.2941,0.1515,-0.0098,0.0545,0.0466,0.0102,0.0323,0.0961,0.0179,7.774,0.2991,0.0068,0.0024,85.8262,60.0379,0.4271,2.5171,81.3409,79.7636,186.8261,8.9015,-0.0045,-0.018,79.7276,62.5124,55.7495,0.0986,0.0917,0.0985,0.0002,0.0021,0.0947,0.1013,3.2514,3.2762,0.0935,0.1865,2.7002,2.6304,2.6168,0.0001,79.8584,78.5702,-227.3447,-227.6164,0,4.6991,-999.25,0.0379,4688.33,0.0985,0.1834,0.1622,0.0127,0.6417,64.5573,107.8565
10760.65,0.05,10760.7,27.6,52.5,10.2,0.3,0,0.9,2.6,0.7,0.8,4.2,0.5,67.1247,397.387,618.2693,391.6933,329.1342,70.7929,935.6265,1166.63,436.8225,546.5696,70.9351,725.9784,776.2049,670.4378,438.8014,2.553,504.4089,22.6847,0.0129,0.0065,0.0007,0.002,0.0067,0.0054,0.0013,0,0,1533.09,6080.65,0.0098,0.0039,0.0008,0.0154,6662.2,187.2941,0.1693,-0.0075,0.0182,0.0135,0.0734,0.0221,0.2513,0.012,2.6509,0.1358,0.0087,0.0006,38.9162,60.0379,0.3122,2.3353,36.8521,35.3933,186.8261,8.9193,-0.0049,-0.0093,35.0582,410.7731,368.2821,0.0291,0.1004,0.0264,0.0001,0.0001,0.0159,0.028,4.4972,4.5769,0.0262,0.2381,2.7181,2.6869,2.6789,0.0065,2439.74,1882.23,-233.1875,-233.1054,0,7.8385,-999.25,0.0227,4634.167,0.0264,0.6009,0.111,0.0162,0.2719,55.7513,94.6209
10804.15,0.05,10804.2,32,17,2,0,0,1,28,6,6,7,1,25.6882,38.3636,40.8145,39.0916,37.2691,26.3088,42.857,45.033,45.1443,45.1908,26.8887,41.3207,44.8029,41.749,40.1134,25.5809,46.9861,11.9212,0.0435,0.0157,0.0157,0.0079,0.0071,0.0026,0.0019,0.0005,0,1548.426,2790.17,0.0079,0.004,0.0008,0.02,4404.25,189.2706,0.1785,-0.0096,0.0381,0.0378,0,0.0468,0.1032,0.0252,2.2378,0.2662,0.0146,0.0036,86.3737,58.8674,0.4742,2.0476,81.7575,89.0373,187.8327,8.9285,-0.0018,-0.0224,74.7311,50.299,44.8161,0.0755,0.0296,0.085,0.0002,0.0023,0.0979,0.0789,3.7757,3.7801,0.0803,0.3331,2.7241,2.6453,2.6449,0.0001,64.1914,64.344,-224.9007,-224.7312,0,2.9974,-999.25,0.0514,4670.67,0.085,0.2025,0.235,0.0273,0.5352,63.6227,107.3042
10826.15,0.05,10826.1,47,16,3,0,0,2,18,2,4,7,1,58.4595,201.0977,251.249,184.7794,170.3443,53.3426,179.0697,179.165,126.4997,136.8098,57.516,195.7697,240.6988,175.7511,160.9163,5.4119,168.1232,24.7366,0.0309,0.0008,0.0068,0.0205,0.0029,0.0039,0.0031,0,0,1539.97,2338,0.0071,0.0041,0.0008,0.0304,4197.41,189.2706,0.0553,-0.0095,0.0865,0.0791,0.0406,0.0533,0.0534,0.0296,5.9761,0.3122,0.0109,0.0036,100.7609,58.8674,0.4451,2.2106,95.9239,100.6681,188.3361,8.8053,-0.0072,-0.0241,98.4132,128.4347,114.7927,0.1246,0.0933,0.1145,0.0005,0.0011,0.1253,0.1196,2.9605,3.1415,0.1111,0.5711,2.7195,2.5747,2.5621,0.0001,164.4682,210.4985,-237.2169,-237.5436,0,7.9019,-999.25,0.038,4729.83,0.1144,0.0685,0.2677,0.0204,0.6434,68.2916,107.683
10826.2,0.1,10826.1,47.6,14.2,5,1.5,0,3.4,10.8,11.2,2.6,7,2.1,58.4595,201.0977,251.249,184.7794,170.3443,53.3426,179.0697,179.165,126.4997,136.8098,57.516,195.7697,240.6988,175.7511,160.9163,5.4119,168.1232,24.7366,0.0309,0.0008,0.0068,0.0205,0.0029,0.0039,0.0031,0,0,1539.97,2338,0.0071,0.0041,0.0008,0.0304,4197.41,189.2706,0.0553,-0.0095,0.0865,0.0791,0.0406,0.0533,0.0534,0.0296,5.9761,0.3122,0.0109,0.0036,100.7609,58.8674,0.4451,2.2106,95.9239,100.6681,188.3361,8.8053,-0.0072,-0.0241,98.4132,128.4347,114.7927,0.1246,0.0933,0.1145,0.0005,0.0011,0.1253,0.1196,2.9605,3.1415,0.1111,0.5711,2.7195,2.5747,2.5621,0.0001,164.4682,210.4985,-237.2169,-237.5436,0,7.9019,-999.25,0.038,4729.83,0.1144,0.0685,0.2677,0.0204,0.6434,68.2916,107.683
10855.15,0.05,10855.1,45,19,3,0,0,1,17,3,5,6,1,42.583,79.6168,85.7539,77.0154,74.2428,45.066,88.5898,98.0402,85.98,87.8218,44.4614,87.2362,94.752,85.985,79.976,12.9844,93.0543,19.0908,0.0224,0.004,0.0041,0.0089,0.0071,0.0001,0.001,0,0,1526.23,3129.79,0.0027,0.0033,0.0008,0.0171,4693.89,189.2706,0.0514,-0.0086,0.0329,0.0295,0,0.033,0.1276,0.018,9.0699,0.2612,0.0081,0.0026,84.4006,58.8674,0.4377,2.2321,80.3634,89.4809,188.8394,8.8014,-0.0016,0.0082,76.0549,136.3403,121.9334,0.0751,0.0414,0.0757,0,0.0001,0.0779,0.0734,3.7699,3.6771,0.0718,0.2811,2.7074,2.6595,2.6537,0.0009,177.0265,133.7515,-233.3393,-233.3624,0,5.2329,-999.25,0.0252,4738.667,0.0757,0.2681,0.1658,0.0151,0.551,63.1675,103.9371
10857.15,0.05,10857.1,30,46,7,0,0,1,7,1,3,5,0,43.0656,84.7816,93.6149,83.2545,80.4253,38.1618,66.9468,69.5297,62.8456,63.9375,41.1516,73.8702,81.3794,73.7512,69.9872,12.0114,70.8149,17.283,0.0506,0.0086,0.0159,0.0177,0.0099,0,0,0,0.0011,1521.52,2856.71,0.0027,0.0039,0.0008,0.0288,4615.24,189.2706,0.0306,-0.0088,0.0515,0.0431,0.0779,0.035,0.1256,0.0196,8.6392,0.2596,0.0031,0.0033,96.276,57.6968,0.4682,2.4131,91.7599,97.315,188.8394,8.7806,-0.0098,-0.042,94.0967,66.808,59.5984,0.0896,0.1772,0.0906,0.0005,0.0003,0.0969,0.096,3.6402,3.7929,0.0866,0.0565,2.7041,2.6364,2.6219,0.0001,85.3742,94.6067,-234.8162,-234.5617,0,3.8814,-999.25,0.0534,4677.6,0.0906,0.2629,0.1758,0.0058,0.5555,62.2023,102.8448
10857.2,0.1,10857.1,29.6,45.2,12.1,0.1,0,1.2,4.5,3.6,0.9,3.7,0.9,43.0656,84.7816,93.6149,83.2545,80.4253,38.1618,66.9468,69.5297,62.8456,63.9375,41.1516,73.8702,81.3794,73.7512,69.9872,12.0114,70.8149,17.283,0.0506,0.0086,0.0159,0.0177,0.0099,0,0,0,0.0011,1521.52,2856.71,0.0027,0.0039,0.0008,0.0288,4615.24,189.2706,0.0306,-0.0088,0.0515,0.0431,0.0779,0.035,0.1256,0.0196,8.6392,0.2596,0.0031,0.0033,96.276,57.6968,0.4682,2.4131,91.7599,97.315,188.8394,8.7806,-0.0098,-0.042,94.0967,66.808,59.5984,0.0896,0.1772,0.0906,0.0005,0.0003,0.0969,0.096,3.6402,3.7929,0.0866,0.0565,2.7041,2.6364,2.6219,0.0001,85.3742,94.6067,-234.8162,-234.5617,0,3.8814,-999.25,0.0534,4677.6,0.0906,0.2629,0.1758,0.0058,0.5555,62.2023,102.8448
10879.65,0.05,10879.7,34,37,2,0,0,1,15,1,3,6,1,49.6171,138.8872,185.1489,156.1865,142.2857,56.9182,190.514,212.9951,183.5851,198.5005,51.3179,151.0136,190.6402,159.6581,143.5948,6.4026,214.5927,18.757,0.0393,0.0029,0.0123,0.0191,0.0063,0.0012,0.0001,0,0.0007,1523.32,3355.26,0.0033,0.0038,0.0008,0.0274,5052.22,189.2706,-0.0333,-0.0083,0.0429,0.038,0.0739,0.03,0.1821,0.0159,1.699,0.2032,0.014,0.0011,94.776,62.379,0.385,1.9148,90.6014,97.2623,189.3427,8.7167,-0.0052,-0.0252,94.3114,257.4559,231.2276,0.0741,0.1271,0.0767,0.0003,0.0002,0.0784,0.0756,4.0853,4.0802,0.0737,0,2.7198,2.6451,2.6366,0.0001,401.3709,269.8477,-244.0037,-244.1063,0,4.7237,-999.25,0.0426,4706.17,0.0765,0.4149,0.1507,0.0262,0.4082,59.4268,100.3568